Folder: DIC_lab

File: strain to stress.csv
No.,Time( s) ,Elongation( mm) ,Force( N) ,Stress( MPa) ,Strain( %)
1,0.095,0,0,0,0
9,0.994,0.013,6,0.115,0.013
17,1.954,0.028,14,0.273,0.03
25,2.884,0.044,23,0.433,0.047
33,3.784,0.059,31,0.585,0.063
41,4.534,0.071,38,0.713,0.077
49,5.374,0.085,45,0.853,0.092
57,6.178,0.099,52,0.988,0.106
65,6.946,0.112,59,1.122,0.121
73,7.726,0.124,66,1.243,0.134
81,8.548,0.138,73,1.378,0.149
89,9.346,0.152,80,1.514,0.164
97,10.198,0.166,87,1.649,0.179
105,10.966,0.179,94,1.783,0.193
113,11.716,0.191,101,1.906,0.206
121,12.568,0.206,108,2.037,0.222
129,13.366,0.219,115,2.175,0.236
137,14.206,0.233,122,2.305,0.252
145,14.914,0.245,128,2.428,0.264
153,15.646,0.256,134,2.546,0.277
161,16.438,0.27,141,2.671,0.292
169,17.224,0.283,148,2.805,0.306
177,17.968,0.295,154,2.923,0.319
185,18.796,0.31,161,3.05,0.334
193,19.576,0.322,168,3.183,0.348
201,20.386,0.336,175,3.313,0.363
209,21.178,0.35,182,3.442,0.377
217,21.934,0.362,188,3.566,0.391
225,22.678,0.374,194,3.683,0.404
233,23.458,0.387,201,3.8,0.418
241,24.256,0.401,207,3.928,0.433
249,24.946,0.412,213,4.042,0.445
257,25.786,0.426,220,4.162,0.46
265,26.656,0.441,227,4.29,0.476
273,27.388,0.453,232,4.398,0.489
281,28.126,0.465,238,4.504,0.502
289,28.906,0.479,244,4.617,0.517
297,29.674,0.491,249,4.725,0.53
305,30.448,0.504,256,4.84,0.545
313,31.216,0.517,262,4.966,0.558
321,31.936,0.529,268,5.083,0.571
329,32.734,0.543,275,5.215,0.586
337,33.544,0.556,282,5.345,0.6
345,34.276,0.568,289,5.47,0.614
353,35.044,0.581,295,5.591,0.627
361,35.806,0.593,301,5.709,0.641
369,36.586,0.607,308,5.838,0.655
377,37.414,0.621,315,5.966,0.67
385,38.206,0.634,322,6.092,0.685
393,38.938,0.646,328,6.209,0.697
401,39.676,0.658,334,6.322,0.711
409,40.438,0.671,340,6.437,0.724
417,41.164,0.683,346,6.547,0.738
425,41.914,0.696,352,6.66,0.751
433,42.706,0.709,358,6.776,0.765
441,43.474,0.722,364,6.894,0.779
449,44.278,0.735,371,7.026,0.794
457,45.004,0.747,377,7.143,0.807
465,45.808,0.761,384,7.268,0.821
473,46.576,0.773,390,7.394,0.835
481,47.338,0.786,397,7.515,0.849
489,48.106,0.799,403,7.641,0.863
497,48.874,0.812,410,7.762,0.877
505,49.564,0.823,416,7.871,0.889
513,50.344,0.837,422,7.99,0.903
521,51.088,0.849,428,8.111,0.917
529,51.886,0.862,435,8.239,0.931
537,52.606,0.874,441,8.362,0.944
545,53.458,0.888,448,8.494,0.959
553,54.226,0.901,455,8.622,0.974
561,54.946,0.913,462,8.742,0.986
569,55.768,0.927,469,8.874,1.001
577,56.506,0.94,475,8.995,1.015
585,57.256,0.952,481,9.114,1.028
593,58.048,0.965,488,9.246,1.042
601,58.828,0.978,495,9.368,1.056
609,59.596,0.991,501,9.496,1.071
617,60.346,1.004,508,9.615,1.084
625,61.156,1.017,514,9.742,1.098
633,61.978,1.03,521,9.868,1.113
641,62.734,1.044,528,9.992,1.127
649,63.544,1.057,534,10.121,1.142
657,64.336,1.07,541,10.247,1.156
665,65.056,1.082,547,10.364,1.169
673,65.866,1.095,553,10.483,1.183
681,66.616,1.108,560,10.603,1.196
689,67.378,1.121,566,10.719,1.211
697,68.188,1.134,573,10.845,1.225
705,68.968,1.148,579,10.967,1.24
713,69.766,1.161,585,11.083,1.254
721,70.546,1.174,592,11.203,1.267
729,71.278,1.186,598,11.322,1.281
737,71.956,1.198,604,11.432,1.294
745,72.688,1.21,609,11.54,1.306
753,73.468,1.223,615,11.655,1.321
761,74.278,1.236,622,11.777,1.335
769,75.016,1.249,628,11.889,1.348
777,75.796,1.262,634,12.008,1.363
785,76.528,1.274,640,12.113,1.375
793,77.308,1.287,646,12.229,1.39
801,78.076,1.3,652,12.342,1.403
809,78.874,1.314,658,12.457,1.418
817,79.594,1.325,664,12.567,1.431
825,80.428,1.339,669,12.676,1.446
833,81.148,1.351,675,12.786,1.459
841,81.916,1.364,681,12.894,1.473
849,82.696,1.377,687,13.005,1.487
857,83.506,1.391,693,13.116,1.502
865,84.226,1.403,698,13.219,1.515
873,84.988,1.415,703,13.323,1.528
881,85.774,1.428,709,13.432,1.543
889,86.614,1.443,716,13.553,1.558
897,87.346,1.455,721,13.661,1.571
905,88.084,1.467,727,13.761,1.584
913,88.894,1.48,732,13.872,1.598
921,89.638,1.493,738,13.976,1.612
929,90.424,1.506,744,14.09,1.626
937,91.138,1.518,750,14.197,1.64
945,91.954,1.532,755,14.303,1.654
953,92.746,1.545,761,14.409,1.668
961,93.544,1.558,766,14.517,1.683
969,94.324,1.572,772,14.628,1.697
977,95.038,1.583,778,14.736,1.71
985,95.824,1.597,783,14.833,1.724
993,96.586,1.609,789,14.94,1.738
1001,97.318,1.621,794,15.037,1.75
1009,98.068,1.634,800,15.145,1.765
1017,98.806,1.647,805,15.245,1.778
1025,99.574,1.659,810,15.347,1.792
1033,100.354,1.672,816,15.453,1.805
1041,101.146,1.685,821,15.557,1.82
1049,101.908,1.698,827,15.659,1.833
1057,102.676,1.711,832,15.765,1.847
1065,103.516,1.725,838,15.875,1.863
1073,104.278,1.737,843,15.973,1.876
1081,105.064,1.751,849,16.077,1.89
1089,105.844,1.764,854,16.177,1.904
1097,106.504,1.775,859,16.274,1.917
1105,107.314,1.788,864,16.372,1.931
1113,108.118,1.801,870,16.474,1.945
1121,108.964,1.816,876,16.582,1.961
1129,109.804,1.83,881,16.688,1.976
1137,110.548,1.842,887,16.792,1.989
1145,111.238,1.854,891,16.876,2.002
1153,111.994,1.866,896,16.972,2.015
1161,112.828,1.88,902,17.074,2.031
1169,113.608,1.893,907,17.176,2.045
1177,114.448,1.908,913,17.284,2.06
1185,115.198,1.92,918,17.381,2.073
1193,115.936,1.932,922,17.47,2.086
1201,116.704,1.945,927,17.563,2.101
1209,117.508,1.959,933,17.661,2.115
1217,118.234,1.971,938,17.758,2.129
1225,119.008,1.984,942,17.847,2.142
1233,119.716,1.995,947,17.934,2.155
1241,120.574,2.009,952,18.036,2.17
1249,121.294,2.022,957,18.131,2.183
1257,122.074,2.035,963,18.23,2.198
1265,122.908,2.049,967,18.322,2.212
1273,123.676,2.062,970,18.378,2.227
1281,124.468,2.074,976,18.478,2.24
1289,125.266,2.088,981,18.579,2.255
1297,126.016,2.101,986,18.675,2.269
1305,126.796,2.113,991,18.763,2.282
1313,127.528,2.126,995,18.848,2.296
1321,128.296,2.138,1000,18.941,2.309
1329,129.076,2.152,1005,19.034,2.324
1337,129.856,2.165,1010,19.129,2.338
1345,130.584,2.177,1014,19.21,2.352
1353,131.344,2.189,1019,19.296,2.364
1361,132.136,2.203,1023,19.379,2.379
1369,132.946,2.217,1028,19.465,2.394
1377,133.696,2.229,1032,19.552,2.407
1385,134.488,2.242,1037,19.639,2.422
1393,135.238,2.255,1041,19.719,2.435
1401,135.988,2.267,1045,19.801,2.449
1409,136.786,2.281,1050,19.886,2.463
1417,137.638,2.295,1055,19.975,2.478
1425,138.394,2.307,1059,20.055,2.492
1433,139.174,2.321,1063,20.135,2.506
1441,139.918,2.333,1067,20.211,2.519
1449,140.758,2.346,1072,20.295,2.534
1457,141.496,2.36,1076,20.373,2.548
1465,142.306,2.373,1080,20.451,2.563
1473,143.086,2.385,1084,20.527,2.576
1481,143.836,2.398,1087,20.596,2.59
1489,144.628,2.411,1091,20.672,2.604
1497,145.366,2.425,1095,20.741,2.618
1505,146.176,2.437,1099,20.811,2.632
1513,147.034,2.452,1103,20.884,2.648
1521,147.718,2.463,1106,20.941,2.66
1529,148.498,2.476,1109,20.999,2.674
1537,149.218,2.489,1112,21.058,2.688
1545,149.968,2.501,1115,21.114,2.7
1553,150.779,2.514,1118,21.17,2.715
1561,151.528,2.527,1120,21.22,2.729
1569,152.326,2.54,1123,21.272,2.743
1577,153.094,2.554,1126,21.324,2.758
1585,153.916,2.567,1128,21.368,2.772
1593,154.576,2.578,1130,21.407,2.784
1601,155.338,2.59,1132,21.448,2.797
1609,156.094,2.603,1135,21.487,2.811
1617,156.904,2.617,1137,21.528,2.826
1625,157.654,2.63,1138,21.56,2.84
1633,158.356,2.641,1140,21.584,2.852
1641,159.028,2.652,1141,21.608,2.864
1649,159.856,2.666,1142,21.63,2.879
1657,160.624,2.679,1143,21.649,2.893
1665,161.464,2.693,1144,21.667,2.908
1673,162.226,2.705,1144,21.675,2.921
1681,162.946,2.717,1145,21.68,2.934
1689,163.648,2.73,1145,21.688,2.948
1697,164.368,2.741,1145,21.694,2.96
1705,165.136,2.755,1146,21.695,2.975
1713,165.904,2.767,1145,21.688,2.988
1721,166.684,2.78,1145,21.679,3.002
1729,167.458,2.793,1144,21.669,3.016
1737,168.196,2.805,1144,21.662,3.03
1745,168.958,2.818,1143,21.651,3.043
1753,169.726,2.831,1142,21.632,3.057
1761,170.548,2.845,1141,21.61,3.072
1769,171.328,2.857,1140,21.588,3.086
1777,172.084,2.87,1139,21.564,3.1
1785,172.906,2.884,1137,21.543,3.115
1793,173.644,2.896,1136,21.51,3.128
1801,174.406,2.909,1134,21.476,3.141
1809,175.168,2.921,1132,21.441,3.155
1817,175.936,2.934,1130,21.407,3.169
1825,176.698,2.948,1129,21.376,3.183
1833,177.436,2.959,1126,21.335,3.196
1841,178.168,2.972,1124,21.294,3.21
1849,178.924,2.985,1122,21.253,3.223
1857,179.644,2.996,1120,21.212,3.236
1865,180.466,3.011,1118,21.17,3.252
1873,181.246,3.024,1115,21.12,3.265
1881,181.996,3.036,1112,21.069,3.279
1889,182.746,3.049,1110,21.017,3.292
1897,183.496,3.061,1107,20.967,3.306
1905,184.276,3.074,1104,20.915,3.32
1913,185.086,3.088,1101,20.856,3.334
1921,185.92,3.101,1098,20.791,3.349
1929,186.586,3.113,1095,20.731,3.361
1937,187.318,3.124,1091,20.67,3.374
1945,188.056,3.137,1088,20.601,3.388
1953,188.806,3.149,1084,20.527,3.401
1961,189.496,3.161,1080,20.445,3.414
1969,190.318,3.175,1074,20.34,3.429
1977,191.128,3.189,1065,20.18,3.443
1985,191.908,3.202,1050,19.881,3.458
1993,192.586,3.213,1022,19.35,3.47
2001,193.366,3.225,-27,-0.514,3.482
2009,194.176,3.239,-28,-0.527,3.498
2017,195.01,3.253,-28,-0.529,3.513
2025,195.826,3.267,-28,-0.529,3.528
2033,196.607,3.28,-28,-0.531,3.542
2041,197.524,3.292,-28,-0.531,3.556
2049,198.334,3.292,-28,-0.531,3.556
2055,198.946,3.292,-28,-0.531,3.555